File: examples/2.3-LSV 1 M KOH OER OCP-0.1975 iR-95%-1.3Ω (0~0.8V) NiCo2O4.txt
Sept. 7, 2022   15:39:14
Linear Sweep Voltammetry
File: f:\2-Data Source:  Experiment
Instrument Model:  CHI760E
Header:
Note:

Init E (V) = 0
Final E (V) = 0.8
Scan Rate (V/s) = 0.005
Sample Interval (V) = 0.001
Quiet Time (sec) = 2
Sensitivity (A/V) = 0.1
Comp R (ohm) = 1.2

Potential/V, Current/A

0.000, -4.427e-3
0.001, -4.412e-3
0.002, -4.408e-3
0.003, -4.411e-3
0.004, -4.411e-3
0.005, -4.409e-3
0.006, -4.411e-3
0.007, -4.411e-3
0.008, -4.406e-3
0.009, -4.403e-3
0.010, -4.406e-3
0.011, -4.408e-3
0.012, -4.401e-3
0.013, -4.403e-3
0.014, -4.406e-3
0.015, -4.406e-3
0.016, -4.409e-3
0.017, -4.404e-3
0.018, -4.406e-3
0.019, -4.409e-3
0.020, -4.406e-3
0.021, -4.410e-3
0.022, -4.409e-3
0.023, -4.407e-3
0.024, -4.405e-3
0.025, -4.403e-3
0.026, -4.405e-3
0.027, -4.398e-3
0.028, -4.405e-3
0.029, -4.408e-3
0.030, -4.402e-3
0.031, -4.406e-3
0.032, -4.406e-3
0.033, -4.404e-3
0.034, -4.403e-3
0.035, -4.399e-3
0.036, -4.406e-3
0.037, -4.399e-3
0.038, -4.399e-3
0.039, -4.411e-3
0.040, -4.404e-3
0.041, -4.406e-3
0.042, -4.407e-3
0.043, -4.403e-3
0.044, -4.407e-3
0.045, -4.406e-3
0.046, -4.408e-3
0.047, -4.403e-3
0.048, -4.407e-3
0.049, -4.412e-3
0.050, -4.409e-3
0.051, -4.406e-3
0.052, -4.407e-3
0.053, -4.415e-3
0.054, -4.406e-3
0.055, -4.415e-3
0.056, -4.414e-3
0.057, -4.409e-3
0.058, -4.410e-3
0.059, -4.405e-3
0.060, -4.403e-3
0.061, -4.409e-3
0.062, -4.400e-3
0.063, -4.404e-3
0.064, -4.411e-3
0.065, -4.406e-3
0.066, -4.408e-3
0.067, -4.408e-3
0.068, -4.405e-3
0.069, -4.408e-3
0.070, -4.407e-3
0.071, -4.411e-3
0.072, -4.404e-3
0.073, -4.402e-3
0.074, -4.400e-3
0.075, -4.406e-3
0.076, -4.409e-3
0.077, -4.409e-3
0.078, -4.405e-3
0.079, -4.408e-3
0.080, -4.407e-3
0.081, -4.403e-3
0.082, -4.405e-3
0.083, -4.409e-3
0.084, -4.405e-3
0.085, -4.403e-3
0.086, -4.404e-3
0.087, -4.398e-3
0.088, -4.404e-3
0.089, -4.408e-3
0.090, -4.407e-3
0.091, -4.402e-3
0.092, -4.410e-3
0.093, -4.406e-3
0.094, -4.410e-3
0.095, -4.409e-3
0.096, -4.410e-3
0.097, -4.403e-3
0.098, -4.402e-3
0.099, -4.409e-3
0.100, -4.406e-3
0.101, -4.408e-3
0.102, -4.409e-3
0.103, -4.407e-3
0.104, -4.409e-3
0.105, -4.407e-3
0.106, -4.407e-3
0.107, -4.405e-3
0.108, -4.410e-3
0.109, -4.407e-3
0.110, -4.412e-3
0.111, -4.403e-3
0.112, -4.407e-3
0.113, -4.402e-3
0.114, -4.406e-3
0.115, -4.406e-3
0.116, -4.406e-3
0.117, -4.408e-3
0.118, -4.406e-3
0.119, -4.403e-3
0.120, -4.399e-3
0.121, -4.402e-3
0.122, -4.403e-3
0.123, -4.400e-3
0.124, -4.404e-3
0.125, -4.407e-3
0.126, -4.412e-3
0.127, -4.405e-3
0.128, -4.405e-3
0.129, -4.400e-3
0.130, -4.411e-3
0.131, -4.401e-3
0.132, -4.403e-3
0.133, -4.406e-3
0.134, -4.408e-3
0.135, -4.408e-3
0.136, -4.409e-3
0.137, -4.409e-3
0.138, -4.399e-3
0.139, -4.402e-3
0.140, -4.399e-3
0.141, -4.401e-3
0.142, -4.405e-3
0.143, -4.408e-3
0.144, -4.408e-3
0.145, -4.407e-3
0.146, -4.408e-3
0.147, -4.406e-3
0.148, -4.410e-3
0.149, -4.406e-3
0.150, -4.406e-3
0.151, -4.404e-3
0.152, -4.403e-3
0.153, -4.405e-3
0.154, -4.406e-3
0.155, -4.407e-3
0.156, -4.397e-3
0.157, -4.403e-3
0.158, -4.398e-3
0.159, -4.396e-3
0.160, -4.403e-3
0.161, -4.405e-3
0.162, -4.400e-3
0.163, -4.404e-3
0.164, -4.401e-3
0.165, -4.403e-3
0.166, -4.400e-3
0.167, -4.400e-3
0.168, -4.405e-3
0.169, -4.399e-3
0.170, -4.405e-3
0.171, -4.401e-3
0.172, -4.403e-3
0.173, -4.399e-3
0.174, -4.404e-3
0.175, -4.403e-3
0.176, -4.401e-3
0.177, -4.395e-3
0.178, -4.401e-3
0.179, -4.396e-3
0.180, -4.398e-3
0.181, -4.404e-3
0.182, -4.402e-3
0.183, -4.399e-3
0.184, -4.396e-3
0.185, -4.395e-3
0.186, -4.403e-3
0.187, -4.402e-3
0.188, -4.403e-3
0.189, -4.404e-3
0.190, -4.399e-3
0.191, -4.398e-3
0.192, -4.399e-3
0.193, -4.394e-3
0.194, -4.389e-3
0.195, -4.400e-3
0.196, -4.402e-3
0.197, -4.397e-3
0.198, -4.395e-3
0.199, -4.397e-3
0.200, -4.394e-3
0.201, -4.386e-3
0.202, -4.396e-3
0.203, -4.401e-3
0.204, -4.399e-3
0.205, -4.399e-3
0.206, -4.398e-3
0.207, -4.396e-3
0.208, -4.395e-3
0.209, -4.395e-3
0.210, -4.396e-3
0.211, -4.394e-3
0.212, -4.387e-3
0.213, -4.395e-3
0.214, -4.392e-3
0.215, -4.394e-3
0.216, -4.393e-3
0.217, -4.387e-3
0.218, -4.389e-3
0.219, -4.390e-3
0.220, -4.393e-3
0.221, -4.386e-3
0.222, -4.387e-3
0.223, -4.387e-3
0.224, -4.385e-3
0.225, -4.378e-3
0.226, -4.390e-3
0.227, -4.391e-3
0.228, -4.384e-3
0.229, -4.383e-3
0.230, -4.387e-3
0.231, -4.393e-3
0.232, -4.382e-3
0.233, -4.382e-3
0.234, -4.389e-3
0.235, -4.390e-3
0.236, -4.386e-3
0.237, -4.383e-3
0.238, -4.381e-3
0.239, -4.385e-3
0.240, -4.388e-3
0.241, -4.390e-3
0.242, -4.386e-3
0.243, -4.385e-3
0.244, -4.382e-3
0.245, -4.384e-3
0.246, -4.382e-3
0.247, -4.386e-3
0.248, -4.383e-3
0.249, -4.387e-3
0.250, -4.390e-3
0.251, -4.380e-3
0.252, -4.375e-3
0.253, -4.376e-3
0.254, -4.381e-3
0.255, -4.376e-3
0.256, -4.373e-3
0.257, -4.379e-3
0.258, -4.378e-3
0.259, -4.374e-3
0.260, -4.375e-3
0.261, -4.384e-3
0.262, -4.375e-3
0.263, -4.377e-3
0.264, -4.377e-3
0.265, -4.375e-3
0.266, -4.376e-3
0.267, -4.371e-3
0.268, -4.368e-3
0.269, -4.374e-3
0.270, -4.376e-3
0.271, -4.368e-3
0.272, -4.368e-3
0.273, -4.362e-3
0.274, -4.370e-3
0.275, -4.366e-3
0.276, -4.361e-3
0.277, -4.365e-3
0.278, -4.369e-3
0.279, -4.370e-3
0.280, -4.360e-3
0.281, -4.367e-3
0.282, -4.368e-3
0.283, -4.366e-3
0.284, -4.360e-3
0.285, -4.356e-3
0.286, -4.355e-3
0.287, -4.359e-3
0.288, -4.363e-3
0.289, -4.363e-3
0.290, -4.358e-3
0.291, -4.350e-3
0.292, -4.357e-3
0.293, -4.366e-3
0.294, -4.364e-3
0.295, -4.366e-3
0.296, -4.361e-3
0.297, -4.361e-3
0.298, -4.358e-3
0.299, -4.357e-3
0.300, -4.356e-3
0.301, -4.351e-3
0.302, -4.355e-3
0.303, -4.358e-3
0.304, -4.355e-3
0.305, -4.362e-3
0.306, -4.354e-3
0.307, -4.353e-3
0.308, -4.357e-3
0.309, -4.352e-3
0.310, -4.356e-3
0.311, -4.350e-3
0.312, -4.348e-3
0.313, -4.347e-3
0.314, -4.346e-3
0.315, -4.338e-3
0.316, -4.345e-3
0.317, -4.340e-3
0.318, -4.341e-3
0.319, -4.348e-3
0.320, -4.348e-3
0.321, -4.346e-3
0.322, -4.343e-3
0.323, -4.345e-3
0.324, -4.344e-3
0.325, -4.347e-3
0.326, -4.347e-3
0.327, -4.344e-3
0.328, -4.335e-3
0.329, -4.343e-3
0.330, -4.340e-3
0.331, -4.338e-3
0.332, -4.333e-3
0.333, -4.328e-3
0.334, -4.322e-3
0.335, -4.314e-3
0.336, -4.311e-3
0.337, -4.294e-3
0.338, -4.296e-3
0.339, -4.284e-3
0.340, -4.296e-3
0.341, -4.271e-3
0.342, -4.244e-3
0.343, -4.214e-3
0.344, -4.167e-3
0.345, -4.135e-3
0.346, -4.120e-3
0.347, -4.104e-3
0.348, -4.094e-3
0.349, -4.083e-3
0.350, -4.071e-3
0.351, -4.060e-3
0.352, -4.052e-3
0.353, -4.041e-3
0.354, -4.028e-3
0.355, -4.020e-3
0.356, -4.007e-3
0.357, -3.995e-3
0.358, -3.980e-3
0.359, -3.964e-3
0.360, -3.951e-3
0.361, -3.941e-3
0.362, -3.933e-3
0.363, -3.921e-3
0.364, -3.908e-3
0.365, -3.891e-3
0.366, -3.874e-3
0.367, -3.869e-3
0.368, -3.857e-3
0.369, -3.845e-3
0.370, -3.831e-3
0.371, -3.821e-3
0.372, -3.808e-3
0.373, -3.799e-3
0.374, -3.779e-3
0.375, -3.769e-3
0.376, -3.760e-3
0.377, -3.762e-3
0.378, -3.758e-3
0.379, -3.736e-3
0.380, -3.744e-3
0.381, -3.736e-3
0.382, -3.715e-3
0.383, -3.714e-3
0.384, -3.713e-3
0.385, -3.711e-3
0.386, -3.719e-3
0.387, -3.720e-3
0.388, -3.728e-3
0.389, -3.746e-3
0.390, -3.765e-3
0.391, -3.765e-3
0.392, -3.794e-3
0.393, -3.827e-3
0.394, -3.834e-3
0.395, -3.842e-3
0.396, -3.851e-3
0.397, -3.829e-3
0.398, -3.814e-3
0.399, -3.818e-3
0.400, -3.818e-3
0.401, -3.792e-3
0.402, -3.782e-3
0.403, -3.777e-3
0.404, -3.761e-3
0.405, -3.757e-3
0.406, -3.749e-3
0.407, -3.726e-3
0.408, -3.704e-3
0.409, -3.687e-3
0.410, -3.662e-3
0.411, -3.637e-3
0.412, -3.599e-3
0.413, -3.580e-3
0.414, -3.550e-3
0.415, -3.521e-3
0.416, -3.495e-3
0.417, -3.437e-3
0.418, -3.369e-3
0.419, -3.337e-3
0.420, -3.310e-3
0.421, -3.243e-3
0.422, -3.200e-3
0.423, -3.135e-3
0.424, -3.144e-3
0.425, -3.062e-3
0.426, -2.949e-3
0.427, -2.947e-3
0.428, -2.916e-3
0.429, -2.863e-3
0.430, -2.786e-3
0.431, -2.724e-3
0.432, -2.673e-3
0.433, -2.643e-3
0.434, -2.617e-3
0.435, -2.536e-3
0.436, -2.488e-3
0.437, -2.430e-3
0.438, -2.390e-3
0.439, -2.360e-3
0.440, -2.335e-3
0.441, -2.297e-3
0.442, -2.270e-3
0.443, -2.243e-3
0.444, -2.219e-3
0.445, -2.196e-3
0.446, -2.175e-3
0.447, -2.165e-3
0.448, -2.146e-3
0.449, -2.135e-3
0.450, -2.134e-3
0.451, -2.135e-3
0.452, -2.144e-3
0.453, -2.150e-3
0.454, -2.156e-3
0.455, -2.164e-3
0.456, -2.190e-3
0.457, -2.192e-3
0.458, -2.199e-3
0.459, -2.219e-3
0.460, -2.244e-3
0.461, -2.269e-3
0.462, -2.303e-3
0.463, -2.341e-3
0.464, -2.361e-3
0.465, -2.407e-3
0.466, -2.467e-3
0.467, -2.499e-3
0.468, -2.513e-3
0.469, -2.549e-3
0.470, -2.602e-3
0.471, -2.632e-3
0.472, -2.680e-3
0.473, -2.731e-3
0.474, -2.782e-3
0.475, -2.827e-3
0.476, -2.873e-3
0.477, -2.912e-3
0.478, -2.956e-3
0.479, -2.998e-3
0.480, -3.040e-3
0.481, -3.067e-3
0.482, -3.099e-3
0.483, -3.123e-3
0.484, -3.143e-3
0.485, -3.162e-3
0.486, -3.182e-3
0.487, -3.207e-3
0.488, -3.220e-3
0.489, -3.236e-3
0.490, -3.253e-3
0.491, -3.264e-3
0.492, -3.275e-3
0.493, -3.307e-3
0.494, -3.319e-3
0.495, -3.332e-3
0.496, -3.343e-3
0.497, -3.352e-3
0.498, -3.365e-3
0.499, -3.379e-3
0.500, -3.397e-3
0.501, -3.411e-3
0.502, -3.422e-3
0.503, -3.432e-3
0.504, -3.445e-3
0.505, -3.446e-3
0.506, -3.454e-3
0.507, -3.463e-3
0.508, -3.465e-3
0.509, -3.477e-3
0.510, -3.478e-3
0.511, -3.484e-3
0.512, -3.484e-3
0.513, -3.494e-3
0.514, -3.499e-3
0.515, -3.502e-3
0.516, -3.505e-3
0.517, -3.505e-3
0.518, -3.503e-3
0.519, -3.510e-3
0.520, -3.514e-3
0.521, -3.519e-3
0.522, -3.514e-3
0.523, -3.520e-3
0.524, -3.525e-3
0.525, -3.529e-3
0.526, -3.534e-3
0.527, -3.536e-3
0.528, -3.548e-3
0.529, -3.546e-3
0.530, -3.549e-3
0.531, -3.560e-3
0.532, -3.567e-3
0.533, -3.574e-3
0.534, -3.574e-3
0.535, -3.582e-3
0.536, -3.582e-3
0.537, -3.586e-3
0.538, -3.593e-3
0.539, -3.604e-3
0.540, -3.606e-3
0.541, -3.613e-3
0.542, -3.616e-3
0.543, -3.625e-3
0.544, -3.623e-3
0.545, -3.633e-3
0.546, -3.633e-3
0.547, -3.642e-3
0.548, -3.645e-3
0.549, -3.649e-3
0.550, -3.654e-3
0.551, -3.654e-3
0.552, -3.659e-3
0.553, -3.664e-3
0.554, -3.662e-3
0.555, -3.674e-3
0.556, -3.661e-3
0.557, -3.671e-3
0.558, -3.671e-3
0.559, -3.664e-3
0.560, -3.661e-3
0.561, -3.659e-3
0.562, -3.666e-3
0.563, -3.672e-3
0.564, -3.657e-3
0.565, -3.663e-3
0.566, -3.662e-3
0.567, -3.655e-3
0.568, -3.648e-3
0.569, -3.638e-3
0.570, -3.641e-3
0.571, -3.636e-3
0.572, -3.626e-3
0.573, -3.611e-3
0.574, -3.605e-3
0.575, -3.594e-3
0.576, -3.579e-3
0.577, -3.572e-3
0.578, -3.558e-3
0.579, -3.552e-3
0.580, -3.547e-3
0.581, -3.520e-3
0.582, -3.500e-3
0.583, -3.479e-3
0.584, -3.477e-3
0.585, -3.454e-3
0.586, -3.433e-3
0.587, -3.410e-3
0.588, -3.397e-3
0.589, -3.372e-3
0.590, -3.337e-3
0.591, -3.305e-3
0.592, -3.289e-3
0.593, -3.262e-3
0.594, -3.238e-3
0.595, -3.217e-3
0.596, -3.181e-3
0.597, -3.154e-3
0.598, -3.127e-3
0.599, -3.087e-3
0.600, -3.056e-3
0.601, -3.030e-3
0.602, -3.001e-3
0.603, -2.968e-3
0.604, -2.940e-3
0.605, -2.911e-3
0.606, -2.888e-3
0.607, -2.852e-3
0.608, -2.825e-3
0.609, -2.793e-3
0.610, -2.752e-3
0.611, -2.710e-3
0.612, -2.673e-3
0.613, -2.631e-3
0.614, -2.576e-3
0.615, -2.518e-3
0.616, -2.473e-3
0.617, -2.436e-3
0.618, -2.392e-3
0.619, -2.342e-3
0.620, -2.301e-3
0.621, -2.252e-3
0.622, -2.198e-3
0.623, -2.137e-3
0.624, -2.073e-3
0.625, -2.005e-3
0.626, -1.939e-3
0.627, -1.877e-3
0.628, -1.813e-3
0.629, -1.743e-3
0.630, -1.674e-3
0.631, -1.604e-3
0.632, -1.520e-3
0.633, -1.435e-3
0.634, -1.354e-3
0.635, -1.274e-3
0.636, -1.182e-3
0.637, -1.094e-3
0.638, -1.004e-3
0.639, -9.009e-4
0.640, -7.949e-4
0.641, -6.893e-4
0.642, -5.813e-4
0.643, -4.638e-4
0.644, -3.410e-4
0.645, -2.376e-4
0.646, -1.197e-4
0.647, 1.391e-5
0.648, 1.480e-4
0.649, 2.796e-4
0.650, 4.241e-4
0.651, 5.525e-4
0.652, 6.719e-4
0.653, 8.639e-4
0.654, 1.027e-3
0.655, 1.185e-3
0.656, 1.350e-3
0.657, 1.524e-3
0.658, 1.671e-3
0.659, 1.834e-3
0.660, 2.040e-3
0.661, 2.210e-3
0.662, 2.408e-3
0.663, 2.639e-3
0.664, 2.857e-3
0.665, 3.060e-3
0.666, 3.288e-3
0.667, 3.511e-3
0.668, 3.737e-3
0.669, 3.972e-3
0.670, 4.216e-3
0.671, 4.468e-3
0.672, 4.729e-3
0.673, 4.992e-3
0.674, 5.257e-3
0.675, 5.537e-3
0.676, 5.827e-3
0.677, 6.109e-3
0.678, 6.410e-3
0.679, 6.716e-3
0.680, 7.029e-3
0.681, 7.348e-3
0.682, 7.672e-3
0.683, 8.013e-3
0.684, 8.358e-3
0.685, 8.701e-3
0.686, 9.047e-3
0.687, 9.409e-3
0.688, 9.786e-3
0.689, 1.017e-2
0.690, 1.055e-2
0.691, 1.096e-2
0.692, 1.137e-2
0.693, 1.178e-2
0.694, 1.220e-2
0.695, 1.262e-2
0.696, 1.303e-2
0.697, 1.345e-2
0.698, 1.388e-2
0.699, 1.433e-2
0.700, 1.480e-2
0.701, 1.526e-2
0.702, 1.571e-2
0.703, 1.620e-2
0.704, 1.667e-2
0.705, 1.716e-2
0.706, 1.767e-2
0.707, 1.817e-2
0.708, 1.868e-2
0.709, 1.919e-2
0.710, 1.969e-2
0.711, 2.019e-2
0.712, 2.075e-2
0.713, 2.130e-2
0.714, 2.184e-2
0.715, 2.241e-2
0.716, 2.298e-2
0.717, 2.354e-2
0.718, 2.410e-2
0.719, 2.470e-2
0.720, 2.529e-2
0.721, 2.590e-2
0.722, 2.648e-2
0.723, 2.705e-2
0.724, 2.771e-2
0.725, 2.837e-2
0.726, 2.903e-2
0.727, 2.968e-2
0.728, 3.021e-2
0.729, 3.086e-2
0.730, 3.154e-2
0.731, 3.223e-2
0.732, 3.293e-2
0.733, 3.364e-2
0.734, 3.429e-2
0.735, 3.492e-2
0.736, 3.560e-2
0.737, 3.641e-2
0.738, 3.716e-2
0.739, 3.788e-2
0.740, 3.862e-2
0.741, 3.940e-2
0.742, 4.015e-2
0.743, 4.088e-2
0.744, 4.164e-2
0.745, 4.243e-2
0.746, 4.323e-2
0.747, 4.402e-2
0.748, 4.478e-2
0.749, 4.559e-2
0.750, 4.637e-2
0.751, 4.705e-2
0.752, 4.775e-2
0.753, 4.853e-2
0.754, 4.936e-2
0.755, 5.016e-2
0.756, 5.100e-2
0.757, 5.188e-2
0.758, 5.275e-2
0.759, 5.374e-2
0.760, 5.538e-2
0.761, 5.617e-2
0.762, 5.663e-2
0.763, 5.736e-2
0.764, 5.817e-2
0.765, 5.901e-2
0.766, 5.992e-2
0.767, 6.081e-2
0.768, 6.173e-2
0.769, 6.246e-2
0.770, 6.306e-2
0.771, 6.388e-2
0.772, 6.478e-2
0.773, 6.568e-2
0.774, 6.659e-2
0.775, 6.745e-2
0.776, 6.829e-2
0.777, 6.913e-2
0.778, 6.991e-2
0.779, 7.074e-2
0.780, 7.162e-2
0.781, 7.248e-2
0.782, 7.342e-2
0.783, 7.436e-2
0.784, 7.545e-2
0.785, 7.644e-2
0.786, 7.737e-2
0.787, 7.820e-2
0.788, 7.898e-2
0.789, 7.975e-2
0.790, 8.054e-2
0.791, 8.110e-2
0.792, 8.178e-2
0.793, 8.253e-2
0.794, 8.336e-2
0.795, 8.422e-2
0.796, 8.503e-2
0.797, 8.578e-2
0.798, 8.673e-2
0.799, 8.791e-2